init.started,init.stopped,participant,date,expName,psychopyVersion,OS,frameRate,instruction.started,instruction.stopped,instrKeyResp.keys,instrKeyResp.rt,instrKeyResp.duration,instructionLoop1.thisRepN,instructionLoop1.thisTrialN,instructionLoop1.thisN,instructionLoop1.thisIndex,instructionLoop1.ran,currSlide,currImage,currText,lifeHappy.started,lifeHappy.stopped,lifeHappySlider.response,lifeHappySlider.rt,lifeHappyResp.keys,lifeHappyResp.rt,lifeHappyResp.duration,instruction_2.started,instruction_2.stopped,instrKeyResp_2.keys,instrKeyResp_2.rt,instrKeyResp_2.duration,instructionLoop2.thisRepN,instructionLoop2.thisTrialN,instructionLoop2.thisN,instructionLoop2.thisIndex,instructionLoop2.ran,prac_getAnswer.started,prac_getAnswer.stopped,isHappyBlock,isCongruent,isWinOnTop,lastHappyRating,diff,sumDiff,RPE,winAmount,loseAmount,certainAmount,instructchoice,choice,outcome,outcomeAmount,currentWinnings,choiceKey_2.keys,choiceKey_2.rt,choiceKey_2.duration,prac_showChoice.started,prac_showChoice.stopped,prac_showResult.started,prac_showResult.stopped,ITI.started,ITI.stopped,pracFails,pracChoiceFails,pracEXPFails,pracHappyFails,pracLoop.thisRepN,pracLoop.thisTrialN,pracLoop.thisN,pracLoop.thisIndex,pracLoop.ran,gambleOutcome,doRating,InstructionText,EXPValue,EXPtext,HappyValue,HappyText,ISI.started,ISI.stopped,prac_trialEXP.started,prac_trialEXP.stopped,EXPResp_2.keys,EXPResp_2.rt,EXPResp_2.duration,EXPTextbox_2.text,Endresp_2.keys,Endresp_2.rt,Endresp_2.duration,prac_trialHappy.started,prac_trialHappy.stopped,happySlider_2.response,happySlider_2.rt,happyResp_2.keys,happyResp_2.rt,happyResp_2.duration,pracRest.started,pracRest.stopped,restKeyResp_2.keys,restKeyResp_2.rt,restKeyResp_2.duration,blockHappy.started,blockHappy.stopped,blockHappySlider.response,blockHappySlider.rt,blockHappyResp.keys,blockHappyResp.rt,blockHappyResp.duration,blank.started,blank.stopped,getAnswer.started,getAnswer.stopped,choiceKey.keys,choiceKey.rt,choiceKey.duration,showChoice.started,showChoice.stopped,showResult.started,showResult.stopped,trialLoop.thisRepN,trialLoop.thisTrialN,trialLoop.thisN,trialLoop.thisIndex,trialLoop.ran,trialEXP.started,trialEXP.stopped,EXPResp.keys,EXPResp.rt,EXPResp.duration,EXPTextbox.text,Endresp.keys,Endresp.rt,Endresp.duration,trialHappy.started,trialHappy.stopped,happySlider.response,happySlider.rt,happyResp.keys,happyResp.rt,happyResp.duration,blockRest.started,blockRest.stopped,restKeyResp.keys,restKeyResp.rt,restKeyResp.duration,Debrief.started,Debrief.stopped,key_resp.keys,key_resp.rt,key_resp.duration,showWinnings.started,finalWinnings,cashBonus,showWinnings.stopped,goodbyeKeyResp_2.keys,goodbyeKeyResp_2.rt,goodbyeKeyResp_2.duration,showHash.started,hashCode,showHash.stopped,goodbyeKeyResp.keys,goodbyeKeyResp.rt,goodbyeKeyResp.duration,logWinningsLoop.thisRepN,logWinningsLoop.thisTrialN,logWinningsLoop.thisN,logWinningsLoop.thisIndex,logWinningsLoop.ran
0.0022,0.0025,9999,2024-01-23_09h54.03.351,Mmi_OpenLoopFixed,2023.2.2,MacIntel,29.94011976,,,,,,,,,,,,,,,,,,,,,,,,,,,,,,,,,,,,,,,,,,,,,,,,,,,,,,,,,,,,,,,,,,,,,,,,,,,,,,,,,,,,,,,,,,,,,,,,,,,,,,,,,,,,,,,,,,,,,,,,,,,,,,,,,,,,,,,,,,,,,,,,,,,,,,,,,,,,,,,,,,
,,9999,2024-01-23_09h54.03.351,Mmi_OpenLoopFixed,2023.2.2,MacIntel,29.94011976,0.0172,75.1366,space,75.0872,,0,0,0,0,1,1,black.png,"Welcome! You are about to play our gambling task.
This task has 3 blocks and takes about 15 minutes.",,,,,,,,,,,,,,,,,,,,,,,,,,,,,,,,,,,,,,,,,,,,,,,,,,,,,,,,,,,,,,,,,,,,,,,,,,,,,,,,,,,,,,,,,,,,,,,,,,,,,,,,,,,,,,,,,,,,,,,,,,,,,,,,,,,,,,,,,,,,,,,,,,,,,
,,9999,2024-01-23_09h54.03.351,Mmi_OpenLoopFixed,2023.2.2,MacIntel,29.94011976,75.1376,76.1692,space,0.9946,,0,1,1,1,1,2,black.png,"In this game, you may win or lose points. Your goal is to get as many points as possible. These points will be converted to a cash bonus at the end.",,,,,,,,,,,,,,,,,,,,,,,,,,,,,,,,,,,,,,,,,,,,,,,,,,,,,,,,,,,,,,,,,,,,,,,,,,,,,,,,,,,,,,,,,,,,,,,,,,,,,,,,,,,,,,,,,,,,,,,,,,,,,,,,,,,,,,,,,,,,,,,,,,,,,
,,9999,2024-01-23_09h54.03.351,Mmi_OpenLoopFixed,2023.2.2,MacIntel,29.94011976,76.1698,80.036,space,3.8355,,0,2,2,2,1,3,black.png,"On the next screen, please rate how you feel about your life these days. Use the LEFT and RIGHT ARROW keys to move the slider (press and hold them to slide gradually) and SPACE to lock in your response.",,,,,,,,,,,,,,,,,,,,,,,,,,,,,,,,,,,,,,,,,,,,,,,,,,,,,,,,,,,,,,,,,,,,,,,,,,,,,,,,,,,,,,,,,,,,,,,,,,,,,,,,,,,,,,,,,,,,,,,,,,,,,,,,,,,,,,,,,,,,,,,,,,,,,
,,9999,2024-01-23_09h54.03.351,Mmi_OpenLoopFixed,2023.2.2,MacIntel,29.94011976,,,,,,,,,,,,,,80.0367,88.7071,0.84,4.6455,space,4.6325,,,,,,,,,,,,,,,,,,,,,,,,,,,,,,,,,,,,,,,,,,,,,,,,,,,,,,,,,,,,,,,,,,,,,,,,,,,,,,,,,,,,,,,,,,,,,,,,,,,,,,,,,,,,,,,,,,,,,,,,,,,,,,,,,,,,,,,,,,,,,,,
,,9999,2024-01-23_09h54.03.351,Mmi_OpenLoopFixed,2023.2.2,MacIntel,29.94011976,,,,,,,,,,,4,black.png,"In this game you can win money by earning points according to your choices. You will decide whether to gamble a number of points or stick with a guaranteed number of points. 
Make your choice by pressing the left or right arrow key once. An example of one trial is shown on the next screen.",,,,,,,,88.7183,99.653,space,10.9077,,0,0,0,0,1,,,,,,,,,,,,,,,,,,,,,,,,,,,,,,,,,,,,,,,,,,,,,,,,,,,,,,,,,,,,,,,,,,,,,,,,,,,,,,,,,,,,,,,,,,,,,,,,,,,,,,,,,,,,,,,,,,,,,,,,,,,,,,,,,,,,
,,9999,2024-01-23_09h54.03.351,Mmi_OpenLoopFixed,2023.2.2,MacIntel,29.94011976,,,,,,,,,,,5,example_start.png,"The GAMBLING OPTION will be shown on the RIGHT SIDE. 
Select this option using the RIGHT ARROW KEY on your keyboard.",,,,,,,,99.6536,105.3543,space,5.6549,,0,1,1,1,1,,,,,,,,,,,,,,,,,,,,,,,,,,,,,,,,,,,,,,,,,,,,,,,,,,,,,,,,,,,,,,,,,,,,,,,,,,,,,,,,,,,,,,,,,,,,,,,,,,,,,,,,,,,,,,,,,,,,,,,,,,,,,,,,,,,,
,,9999,2024-01-23_09h54.03.351,Mmi_OpenLoopFixed,2023.2.2,MacIntel,29.94011976,,,,,,,,,,,6,example_gamble.png,"Once you select the gambling choice, the choice you made will remain on the screen.",,,,,,,,105.3551,110.0895,space,4.6933,,0,2,2,2,1,,,,,,,,,,,,,,,,,,,,,,,,,,,,,,,,,,,,,,,,,,,,,,,,,,,,,,,,,,,,,,,,,,,,,,,,,,,,,,,,,,,,,,,,,,,,,,,,,,,,,,,,,,,,,,,,,,,,,,,,,,,,,,,,,,,,
,,9999,2024-01-23_09h54.03.351,Mmi_OpenLoopFixed,2023.2.2,MacIntel,29.94011976,,,,,,,,,,,7,example_win.png,"The outcome you received will then be shown on the screen. In this example , you WON 10 points.",,,,,,,,110.0904,113.6244,space,3.5023,,0,3,3,3,1,,,,,,,,,,,,,,,,,,,,,,,,,,,,,,,,,,,,,,,,,,,,,,,,,,,,,,,,,,,,,,,,,,,,,,,,,,,,,,,,,,,,,,,,,,,,,,,,,,,,,,,,,,,,,,,,,,,,,,,,,,,,,,,,,,,,
,,9999,2024-01-23_09h54.03.351,Mmi_OpenLoopFixed,2023.2.2,MacIntel,29.94011976,,,,,,,,,,,8,example_start.png,"The GUARANTEED OPTION will be shown on the LEFT SIDE. You are 100% guaranteed to gain or lose this amount. In this example, you have a 100% chance of winning 1 point. Select this option using the LEFT ARROW KEY on your keyboard.",,,,,,,,113.6247,121.2307,space,7.5655,,0,4,4,4,1,,,,,,,,,,,,,,,,,,,,,,,,,,,,,,,,,,,,,,,,,,,,,,,,,,,,,,,,,,,,,,,,,,,,,,,,,,,,,,,,,,,,,,,,,,,,,,,,,,,,,,,,,,,,,,,,,,,,,,,,,,,,,,,,,,,,
,,9999,2024-01-23_09h54.03.351,Mmi_OpenLoopFixed,2023.2.2,MacIntel,29.94011976,,,,,,,,,,,9,example_certain.png,"Once you select the guaranteed choice, your selection will remain on the screen.",,,,,,,,121.2316,122.9338,space,1.6571,,0,5,5,5,1,,,,,,,,,,,,,,,,,,,,,,,,,,,,,,,,,,,,,,,,,,,,,,,,,,,,,,,,,,,,,,,,,,,,,,,,,,,,,,,,,,,,,,,,,,,,,,,,,,,,,,,,,,,,,,,,,,,,,,,,,,,,,,,,,,,,
,,9999,2024-01-23_09h54.03.351,Mmi_OpenLoopFixed,2023.2.2,MacIntel,29.94011976,,,,,,,,,,,10,black.png,"Please make your choices as fast as possible.
You will be given a break at the end of each block.",,,,,,,,122.9343,125.7649,space,2.8135,,0,6,6,6,1,,,,,,,,,,,,,,,,,,,,,,,,,,,,,,,,,,,,,,,,,,,,,,,,,,,,,,,,,,,,,,,,,,,,,,,,,,,,,,,,,,,,,,,,,,,,,,,,,,,,,,,,,,,,,,,,,,,,,,,,,,,,,,,,,,,,
,,9999,2024-01-23_09h54.03.351,Mmi_OpenLoopFixed,2023.2.2,MacIntel,29.94011976,,,,,,,,,,,11,black.png,"Sometimes you will be asked to estimate how many points you think you are going to win/lose on the next trial. Use the number keys to type, then press SPACE to lock in your response. What you estimate will have NO EFFECT on the points you win or lose on the next trials or on your success in the game, so feel free to estimate what you think is the most likely to happen! ",,,,,,,,125.7655,139.1112,space,13.3109,,0,7,7,7,1,,,,,,,,,,,,,,,,,,,,,,,,,,,,,,,,,,,,,,,,,,,,,,,,,,,,,,,,,,,,,,,,,,,,,,,,,,,,,,,,,,,,,,,,,,,,,,,,,,,,,,,,,,,,,,,,,,,,,,,,,,,,,,,,,,,,
,,9999,2024-01-23_09h54.03.351,Mmi_OpenLoopFixed,2023.2.2,MacIntel,29.94011976,,,,,,,,,,,12,black.png,You will also be asked to rate your mood *at this moment*. Use the LEFT and RIGHT ARROW keys to move the slider (press and hold them to slide gradually) and SPACE to lock in your response. First we will do a short practice round to make sure you understand the task. In this practice round we will tell you how to respond in each trial.,,,,,,,,139.1122,151.2146,space,12.0656,,0,8,8,8,1,,,,,,,,,,,,,,,,,,,,,,,,,,,,,,,,,,,,,,,,,,,,,,,,,,,,,,,,,,,,,,,,,,,,,,,,,,,,,,,,,,,,,,,,,,,,,,,,,,,,,,,,,,,,,,,,,,,,,,,,,,,,,,,,,,,,
,,9999,2024-01-23_09h54.03.351,Mmi_OpenLoopFixed,2023.2.2,MacIntel,29.94011976,,,,,,,,,,,,,,,,,,,,,,,,,,,,,,,151.2333,152.5856,FALSE,0,TRUE,0.5,,,0.955,-3.76,-5.67,-4.72,Select the guaranteed option,certain,certain,-4.72,-4.72,left,1.3096,,152.586,155.0836,155.0837,156.0892,156.0906,156.2852,0,0,0,0,0,0,0,0,1,win,No,Select the guaranteed option,,,,,,,,,,,,,,,,,,,,,,,,,,,,,,,,,,,,,,,,,,,,,,,,,,,,,,,,,,,,,,,,,,,,,,,,,,,,,,,,,,,,,,,,,,,,,,
,,9999,2024-01-23_09h54.03.351,Mmi_OpenLoopFixed,2023.2.2,MacIntel,29.94011976,,,,,,,,,,,,,,,,,,,,,,,,,,,,,,,156.2859,157.386,FALSE,0,FALSE,0.5,,,1,2.43,0.43,1.43,Select the gamble option,gamble,win,2.43,-2.29,right,1.0639,,157.3863,159.891,159.891,160.8887,160.8897,161.0906,0,0,0,0,0,1,1,1,1,win,No,Select the gamble option,,,,,,,,,,,,,,,,,,,,,,,,,,,,,,,,,,,,,,,,,,,,,,,,,,,,,,,,,,,,,,,,,,,,,,,,,,,,,,,,,,,,,,,,,,,,,,
,,9999,2024-01-23_09h54.03.351,Mmi_OpenLoopFixed,2023.2.2,MacIntel,29.94011976,,,,,,,,,,,,,,,,,,,,,,,,,,,,,,,161.0913,162.2918,FALSE,0,TRUE,0.5,,,1.525,2.04,-1.01,0.52,Select the gamble option,gamble,lose,-1.01,-3.3,right,1.1636,,162.2923,164.7922,164.7922,165.7908,178.6328,178.8354,0,0,0,0,0,2,2,2,1,lose,Yes,Select the gamble option,-1.01,Enter -1.01,0.25,Indicate that you are somewhat unhappy.,165.7917,165.9945,165.9946,171.2656,"[""minus"",""1"",""period"",""0"",""1""]","[2.1399999999999864,2.57089999999107,2.6765000000000043,2.8867999999970095,3.017499999999984]","[0.1028999999910809,0.10490000000595501,0.10870000000298319,0.07679999999703568,0.06389999999106521]",-1.01 ,space,4.7017,,171.2659,178.6327,0.34,6.8182,space,6.8073,,,,,,,,,,,,,,,,,,,,,,,,,,,,,,,,,,,,,,,,,,,,,,,,,,,,,,,,,,,,,,,,,,,,,,,,,
,,9999,2024-01-23_09h54.03.351,Mmi_OpenLoopFixed,2023.2.2,MacIntel,29.94011976,,,,,,,,,,,,,,,,,,,,,,,,,,,,,,,178.8362,180.5336,FALSE,0,TRUE,0.34,,,1.285,2.39,-0.18,1.28,Select the guaranteed option,certain,certain,1.28,-2.02,left,1.6832,,180.5338,183.0355,183.0355,184.0403,184.0412,184.241,0,0,0,0,0,3,3,3,1,win,No,Select the guaranteed option,,,,,,,,,,,,,,,,,,,,,,,,,,,,,,,,,,,,,,,,,,,,,,,,,,,,,,,,,,,,,,,,,,,,,,,,,,,,,,,,,,,,,,,,,,,,,,
,,9999,2024-01-23_09h54.03.351,Mmi_OpenLoopFixed,2023.2.2,MacIntel,29.94011976,,,,,,,,,,,,,,,,,,,,,,,,,,,,,,,184.2416,185.7401,FALSE,0,FALSE,0.34,,,0.635,4.75,3.48,4.11,Select the gamble option,gamble,win,4.75,2.73,right,1.4808,,185.7404,188.2401,188.2402,189.241,200.38,200.5807,0,0,0,0,0,4,4,4,1,win,Yes,Select the gamble option,0.54,Enter 0.54,0.75,Indicate that you are very happy.,189.2422,189.4421,189.4422,194.48,"[""0"",""period"",""5"",""4""]","[2.334099999994038,2.5532999999969945,3.1528999999910354,3.2542999999970164]","[0.09429999999701977,0.08779999999703136,0.14750000000000796,0.09199999999998454]",0.54 ,space,4.4737,,194.4802,200.38,0.84,5.3458,space,5.336,,,,,,,,,,,,,,,,,,,,,,,,,,,,,,,,,,,,,,,,,,,,,,,,,,,,,,,,,,,,,,,,,,,,,,,,,
,,9999,2024-01-23_09h54.03.351,Mmi_OpenLoopFixed,2023.2.2,MacIntel,29.94011976,,,,,,,,,,,,,,,,,,,,,,,,,,,,,,,,,,,,,,,,,,,,,,,,,,,,,,,,,,,,,,,,,,,,,,,,,,,,,,,,,,,,,,,,,,,200.5809,220.6266,space,20.0145,,,,,,,,,,,,,,,,,,,,,,,,,,,,,,,,,,,,,,,,,,,,,,,,,,,,,,,,,,,,,,,,,,,,
,,9999,2024-01-23_09h54.03.351,Mmi_OpenLoopFixed,2023.2.2,MacIntel,29.94011976,,,,,,,,,,,,,,,,,,,,,,,,,,,,,,,,,FALSE,1,TRUE,0.86,0.36,0.36,5,4.517789491,-0.482210509,2.017789491,,certain,certain,2.017789491,4.747789491,,,,,,,,234.0364,234.2359,0,0,0,0,,,,,,win,No,,,,,,,,,,,,,,,,,,,,,,,,,,,,,220.6355,224.5996,0.86,3.407,space,3.3977,,224.5996,227.6015,227.6133,230.5331,left,2.9014,,230.5333,233.035,233.0351,234.0351,0,0,0,0,1,,,,,,,,,,,,,,,,,,,,,,,,,,,,,,,,,,,,,,,,,,,,
,,9999,2024-01-23_09h54.03.351,Mmi_OpenLoopFixed,2023.2.2,MacIntel,29.94011976,,,,,,,,,,,,,,,,,,,,,,,,,,,,,,,,,FALSE,1,TRUE,0.86,0.36,0.72,5,5.246335497,0.246335497,2.746335497,,gamble,win,5.246335497,9.994124988,,,,,,,,239.343,239.5429,0,0,0,0,,,,,,win,No,,,,,,,,,,,,,,,,,,,,,,,,,,,,,,,,,,,,,,234.2366,235.8385,right,1.5846,,235.8388,238.341,238.3411,239.342,0,1,1,1,1,,,,,,,,,,,,,,,,,,,,,,,,,,,,,,,,,,,,,,,,,,,,
,,9999,2024-01-23_09h54.03.351,Mmi_OpenLoopFixed,2023.2.2,MacIntel,29.94011976,,,,,,,,,,,,,,,,,,,,,,,,,,,,,,,,,FALSE,1,TRUE,0.86,0.36,1.08,5,-0.98410547,-5.8,-3.48410547,,gamble,win,-0.98410547,9.010019518,,,,,,,,262.5531,262.7563,0,0,0,0,,,,,,win,Yes,,,,,,245.3127,245.5136,,,,,,,,,,,,,,,,,,,,,,,,,,,,,,,239.5432,241.806,right,2.2368,,241.806,244.3108,244.3109,245.3116,0,2,2,2,1,245.514,257.7504,"[""2"",""period"",""4"",""N/A"",""5""]","[8.088600000008967,8.40679999999702,8.887700000003008,10.128799999997,10.304299999997]","[0.10309999999401498,0.13210000000896116,0.16059999999401953,0.0877000000029966,0.10360000000895297]",2.5 ,space,11.684,,257.7506,262.553,0.79,4.2879,space,4.2785,,,,,,,,,,,,,,,,,,,,,,,,,,,,,
,,9999,2024-01-23_09h54.03.351,Mmi_OpenLoopFixed,2023.2.2,MacIntel,29.94011976,,,,,,,,,,,,,,,,,,,,,,,,,,,,,,,,,FALSE,0,TRUE,0.79,0.29,1.37,-1.5,5.307006849,3.807006849,4.557006849,,gamble,lose,3.807006849,12.81702637,,,,,,,,267.9596,268.1583,0,0,0,0,,,,,,lose,No,,,,,,,,,,,,,,,,,,,,,,,,,,,,,,,,,,,,,,262.757,264.4589,right,1.6654,,264.459,266.9593,266.9594,267.9586,0,3,3,3,1,,,,,,,,,,,,,,,,,,,,,,,,,,,,,,,,,,,,,,,,,,,,
,,9999,2024-01-23_09h54.03.351,Mmi_OpenLoopFixed,2023.2.2,MacIntel,29.94011976,,,,,,,,,,,,,,,,,,,,,,,,,,,,,,,,,FALSE,1,TRUE,0.79,0.29,1.66,5,3.05887397,-1.94112603,0.55887397,,gamble,win,3.05887397,15.87590034,,,,,,,,288.7026,288.9051,0,0,0,0,,,,,,win,Yes,,,,,,273.9642,274.1629,,,,,,,,,,,,,,,,,,,,,,,,,,,,,,,268.1589,270.461,right,2.2817,,270.4612,272.963,272.963,273.9629,0,4,4,4,1,274.1629,282.4046,"[""3"",""period"",""0"",""0""]","[6.098799999997027,6.478699999988066,6.7790999999940595,6.983399999991036]","[0.10270000000298296,0.10410000000894115,0.1239999999999668,0.11929999999705387]",3.00 ,space,7.7002,,282.4047,288.7025,0.89,5.7662,space,5.7587,,,,,,,,,,,,,,,,,,,,,,,,,,,,,
,,9999,2024-01-23_09h54.03.351,Mmi_OpenLoopFixed,2023.2.2,MacIntel,29.94011976,,,,,,,,,,,,,,,,,,,,,,,,,,,,,,,,,FALSE,1,FALSE,0.89,0.39,2.05,5,-1.21967676,-6.3,-3.71967676,,certain,certain,-3.71967676,12.15622358,,,,,,,,295.2463,295.4457,0,0,0,0,,,,,,win,No,,,,,,,,,,,,,,,,,,,,,,,,,,,,,,,,,,,,,,288.9058,291.7422,left,2.7994,,291.7425,294.2437,294.2437,295.2454,0,5,5,5,1,,,,,,,,,,,,,,,,,,,,,,,,,,,,,,,,,,,,,,,,,,,,
,,9999,2024-01-23_09h54.03.351,Mmi_OpenLoopFixed,2023.2.2,MacIntel,29.94011976,,,,,,,,,,,,,,,,,,,,,,,,,,,,,,,,,FALSE,1,TRUE,0.89,0.39,2.44,5,0.227985751,-4.6,-2.272014249,,gamble,win,0.227985751,12.38420933,,,,,,,,301.3138,301.5123,0,0,0,0,,,,,,win,No,,,,,,,,,,,,,,,,,,,,,,,,,,,,,,,,,,,,,,295.4464,297.8099,right,2.3268,,297.8099,300.3153,300.3154,301.3128,0,6,6,6,1,,,,,,,,,,,,,,,,,,,,,,,,,,,,,,,,,,,,,,,,,,,,
,,9999,2024-01-23_09h54.03.351,Mmi_OpenLoopFixed,2023.2.2,MacIntel,29.94011976,,,,,,,,,,,,,,,,,,,,,,,,,,,,,,,,,FALSE,0,FALSE,0.89,0.39,2.83,-1.5,2.375052154,0.875052154,1.625052154,,gamble,lose,0.875052154,13.25926148,,,,,,,,331.8306,332.0351,0,0,0,0,,,,,,lose,Yes,,,,,,307.6186,307.82,,,,,,,,,,,,,,,,,,,,,,,,,,,,,,,301.5129,304.1174,right,2.5848,,304.1174,306.6163,306.6163,307.6175,0,7,7,7,1,307.82,327.1289,"[""2"",""period"",""5""]","[17.510299999997017,17.674299999997004,18.095100000008927]","[0.10849999999999227,0.10470000000299251,0.10029999999704842]",2.5 ,space,18.7548,,327.1291,331.8306,0.78,4.1813,space,4.1724,,,,,,,,,,,,,,,,,,,,,,,,,,,,,
,,9999,2024-01-23_09h54.03.351,Mmi_OpenLoopFixed,2023.2.2,MacIntel,29.94011976,,,,,,,,,,,,,,,,,,,,,,,,,,,,,,,,,FALSE,1,FALSE,0.78,0.28,3.11,5,5.660054683,0.660054683,3.160054683,,gamble,win,5.660054683,18.91931617,,,,,,,,338.2395,338.4397,0,0,0,0,,,,,,win,No,,,,,,,,,,,,,,,,,,,,,,,,,,,,,,,,,,,,,,332.0358,334.736,right,2.6681,,334.7362,337.2352,337.2353,338.2384,0,8,8,8,1,,,,,,,,,,,,,,,,,,,,,,,,,,,,,,,,,,,,,,,,,,,,
,,9999,2024-01-23_09h54.03.351,Mmi_OpenLoopFixed,2023.2.2,MacIntel,29.94011976,,,,,,,,,,,,,,,,,,,,,,,,,,,,,,,,,FALSE,1,TRUE,0.78,0.28,3.39,5,5.719108282,0.719108282,3.219108282,,gamble,win,5.719108282,24.63842445,,,,,,,,357.2136,357.4158,0,0,0,0,,,,,,win,Yes,,,,,,344.9428,345.1423,,,,,,,,,,,,,,,,,,,,,,,,,,,,,,,338.4403,341.4406,,,,341.4407,343.9436,343.9437,344.9416,0,9,9,9,1,345.1424,353.3168,"[""4"",""period"",""0"",""0""]","[6.037900000005948,6.739299999997058,7.038999999999987,7.187099999994075]","[0.12629999999705888,0.12010000000890386,0.06900000000001683,0.12980000001192593]",4.00 ,space,7.6261,,353.3169,357.2135,0.75,3.3568,space,3.3484,,,,,,,,,,,,,,,,,,,,,,,,,,,,,
,,9999,2024-01-23_09h54.03.351,Mmi_OpenLoopFixed,2023.2.2,MacIntel,29.94011976,,,,,,,,,,,,,,,,,,,,,,,,,,,,,,,,,FALSE,1,FALSE,0.75,0.25,3.64,5,-0.739095347,-5.81,-3.239095347,,gamble,win,-0.739095347,23.8993291,,,,,,,,363.0884,363.289,0,0,0,0,,,,,,win,No,,,,,,,,,,,,,,,,,,,,,,,,,,,,,,,,,,,,,,357.4161,359.5879,right,2.15,,359.588,362.0878,362.0878,363.0876,0,10,10,10,1,,,,,,,,,,,,,,,,,,,,,,,,,,,,,,,,,,,,,,,,,,,,
,,9999,2024-01-23_09h54.03.351,Mmi_OpenLoopFixed,2023.2.2,MacIntel,29.94011976,,,,,,,,,,,,,,,,,,,,,,,,,,,,,,,,,FALSE,0,TRUE,0.75,0.25,3.89,-1.5,5.764742254,4.264742254,5.014742254,,gamble,lose,4.264742254,28.16407135,,,,,,,,378.5948,378.799,0,0,0,0,,,,,,lose,Yes,,,,,,368.2228,368.4264,,,,,,,,,,,,,,,,,,,,,,,,,,,,,,,363.2895,364.7193,right,1.4105,,364.7194,367.2249,367.225,368.2221,0,11,11,11,1,368.4264,375.1299,"[""5"",""period"",""0"",""0""]","[5.188200000002951,5.344399999991026,5.603399999991041,5.73979999999699]","[0.12350000000003547,0.1213000000119564,0.07330000001189774,0.09509999999403362]",5.00 ,space,6.139,,375.13,378.5948,0.75,2.9412,space,2.9332,,,,,,,,,,,,,,,,,,,,,,,,,,,,,
,,9999,2024-01-23_09h54.03.351,Mmi_OpenLoopFixed,2023.2.2,MacIntel,29.94011976,,,,,,,,,,,,,,,,,,,,,,,,,,,,,,,,,FALSE,0,TRUE,0.75,0.25,4.14,-1.5,5.657335586,4.157335586,4.907335586,,gamble,lose,4.157335586,32.32140694,,,,,,,,385.3039,385.5042,0,0,0,0,,,,,,lose,No,,,,,,,,,,,,,,,,,,,,,,,,,,,,,,,,,,,,,,378.7996,381.8006,,,,381.8006,384.3014,384.3015,385.3028,0,12,12,12,1,,,,,,,,,,,,,,,,,,,,,,,,,,,,,,,,,,,,,,,,,,,,
,,9999,2024-01-23_09h54.03.351,Mmi_OpenLoopFixed,2023.2.2,MacIntel,29.94011976,,,,,,,,,,,,,,,,,,,,,,,,,,,,,,,,,FALSE,1,TRUE,0.75,0.25,4.39,5,1.88300519,-3.11699481,-0.61699481,,gamble,win,1.88300519,34.20441213,,,,,,,,390.7073,390.9051,0,0,0,0,,,,,,win,No,,,,,,,,,,,,,,,,,,,,,,,,,,,,,,,,,,,,,,385.5049,387.2003,right,1.667,,387.2004,389.7041,389.7041,390.7064,0,13,13,13,1,,,,,,,,,,,,,,,,,,,,,,,,,,,,,,,,,,,,,,,,,,,,
,,9999,2024-01-23_09h54.03.351,Mmi_OpenLoopFixed,2023.2.2,MacIntel,29.94011976,,,,,,,,,,,,,,,,,,,,,,,,,,,,,,,,,FALSE,1,FALSE,0.75,0.25,4.64,5,4.402243751,-0.597756249,1.902243751,,gamble,win,4.402243751,38.60665588,,,,,,,,405.9467,406.1495,0,0,0,0,,,,,,win,Yes,,,,,,396.3751,396.5735,,,,,,,,,,,,,,,,,,,,,,,,,,,,,,,390.9058,392.8731,right,1.9335,,392.8733,395.3719,395.372,396.3739,0,14,14,14,1,396.5736,402.479,"[""4"",""period"",""0"",""0""]","[4.748799999997061,4.8397999999970125,5.057299999997042,5.2004000000059705]","[0.11920000000293385,0.09720000000299933,0.07460000000895661,0.10050000000001091]",4.00 ,space,5.388,,402.4791,405.9467,0.71,2.9416,space,2.9328,,,,,,,,,,,,,,,,,,,,,,,,,,,,,
,,9999,2024-01-23_09h54.03.351,Mmi_OpenLoopFixed,2023.2.2,MacIntel,29.94011976,,,,,,,,,,,,,,,,,,,,,,,,,,,,,,,,,FALSE,0,TRUE,0.71,0.21,4.85,-1.5,-0.864909291,-2.364909291,-1.614909291,,gamble,lose,-2.364909291,36.24174659,,,,,,,,412.6553,412.8549,0,0,0,0,,,,,,lose,No,,,,,,,,,,,,,,,,,,,,,,,,,,,,,,,,,,,,,,406.1501,409.1524,,,,409.1525,411.6516,411.6517,412.6544,0,15,15,15,1,,,,,,,,,,,,,,,,,,,,,,,,,,,,,,,,,,,,,,,,,,,,
,,9999,2024-01-23_09h54.03.351,Mmi_OpenLoopFixed,2023.2.2,MacIntel,29.94011976,,,,,,,,,,,,,,,,,,,,,,,,,,,,,,,,,FALSE,1,TRUE,0.71,0.21,5.06,5,1.374090261,-3.52,-1.125909739,,gamble,win,1.374090261,37.61583685,,,,,,,,427.5593,427.7605,0,0,0,0,,,,,,win,Yes,,,,,,419.1235,419.3244,,,,,,,,,,,,,,,,,,,,,,,,,,,,,,,412.8555,415.6195,right,2.7532,,415.6195,418.1207,418.1208,419.1229,0,16,16,16,1,419.3244,423.9933,"[""2""]",[3.2003999999910775],[0.11710000000891796],2 ,space,4.1104,,423.9935,427.5592,0.69,3.0139,space,3.0057,,,,,,,,,,,,,,,,,,,,,,,,,,,,,
,,9999,2024-01-23_09h54.03.351,Mmi_OpenLoopFixed,2023.2.2,MacIntel,29.94011976,,,,,,,,,,,,,,,,,,,,,,,,,,,,,,,,,FALSE,1,FALSE,0.69,0.19,5.25,5,5.325884202,0.325884202,2.825884202,,gamble,win,5.325884202,42.94172105,,,,,,,,433.5352,433.7307,0,0,0,0,,,,,,win,No,,,,,,,,,,,,,,,,,,,,,,,,,,,,,,,,,,,,,,427.7609,430.0305,right,2.2508,,430.0306,432.5333,432.5333,433.5343,0,17,17,17,1,,,,,,,,,,,,,,,,,,,,,,,,,,,,,,,,,,,,,,,,,,,,
,,9999,2024-01-23_09h54.03.351,Mmi_OpenLoopFixed,2023.2.2,MacIntel,29.94011976,,,,,,,,,,,,,,,,,,,,,,,,,,,,,,,,,FALSE,1,TRUE,0.69,0.19,5.44,5,4.337658636,-0.662341364,1.837658636,,gamble,win,4.337658636,47.27937969,,,,,,,,438.8377,439.0381,0,0,0,0,,,,,,win,No,,,,,,,,,,,,,,,,,,,,,,,,,,,,,,,,,,,,,,433.7318,435.3366,right,1.583,,435.3368,437.8373,437.8374,438.8369,0,18,18,18,1,,,,,,,,,,,,,,,,,,,,,,,,,,,,,,,,,,,,,,,,,,,,
,,9999,2024-01-23_09h54.03.351,Mmi_OpenLoopFixed,2023.2.2,MacIntel,29.94011976,,,,,,,,,,,,,,,,,,,,,,,,,,,,,,,,,FALSE,0,TRUE,0.69,0.19,5.63,-1.5,5.675939411,4.175939411,4.925939411,,gamble,lose,4.175939411,51.4553191,,,,,,,,451.4088,451.6127,0,0,0,0,,,,,,lose,Yes,,,,,,443.7746,443.9714,,,,,,,,,,,,,,,,,,,,,,,,,,,,,,,439.0387,440.2674,right,1.1981,,440.2675,442.7719,442.7719,443.7735,0,19,19,19,1,443.9715,446.5439,"[""4""]",[1.5387999999970248],[0.1065999999940459],4 ,space,2.0337,,446.544,451.4087,0.9,4.3134,space,4.3051,,,,,,,,,,,,,,,,,,,,,,,,,,,,,
,,9999,2024-01-23_09h54.03.351,Mmi_OpenLoopFixed,2023.2.2,MacIntel,29.94011976,,,,,,,,,,,,,,,,,,,,,,,,,,,,,,,,,FALSE,1,TRUE,0.9,0.4,6.03,5,3.245925593,-1.754074407,0.745925593,,gamble,win,3.245925593,54.70124469,,,,,,,,457.3805,457.5822,0,0,0,0,,,,,,win,No,,,,,,,,,,,,,,,,,,,,,,,,,,,,,,,,,,,,,,451.6133,453.881,right,2.2411,,453.881,456.3814,456.3815,457.3794,0,20,20,20,1,,,,,,,,,,,,,,,,,,,,,,,,,,,,,,,,,,,,,,,,,,,,
,,9999,2024-01-23_09h54.03.351,Mmi_OpenLoopFixed,2023.2.2,MacIntel,29.94011976,,,,,,,,,,,,,,,,,,,,,,,,,,,,,,,,,FALSE,1,FALSE,0.9,0.4,6.43,5,-1.714306571,-6.72,-4.214306571,,gamble,win,-1.714306571,52.98693812,,,,,,,,486.031,486.233,0,0,0,0,,,,,,win,Yes,,,,,,463.2209,463.4178,,,,,,,,,,,,,,,,,,,,,,,,,,,,,,,457.5828,459.7157,right,2.1123,,459.7158,462.2166,462.2167,463.2197,0,21,21,21,1,463.4178,481.8655,"[""1"",""N/A"",""3""]","[14.194299999996986,15.082399999991026,16.840899999991052]","[0.12270000000302161,0.07940000000598957,0.12060000000894888]",3 ,space,17.9279,,481.8657,486.0309,0.77,3.6288,space,3.6221,,,,,,,,,,,,,,,,,,,,,,,,,,,,,
,,9999,2024-01-23_09h54.03.351,Mmi_OpenLoopFixed,2023.2.2,MacIntel,29.94011976,,,,,,,,,,,,,,,,,,,,,,,,,,,,,,,,,FALSE,1,TRUE,0.77,0.27,6.7,5,4.793034447,-0.206965553,2.293034447,,gamble,win,4.793034447,57.77997257,,,,,,,,492.5377,492.7394,0,0,0,0,,,,,,win,No,,,,,,,,,,,,,,,,,,,,,,,,,,,,,,,,,,,,,,486.2338,489.0378,right,2.7757,,489.0382,491.5367,491.5368,492.5367,0,22,22,22,1,,,,,,,,,,,,,,,,,,,,,,,,,,,,,,,,,,,,,,,,,,,,
,,9999,2024-01-23_09h54.03.351,Mmi_OpenLoopFixed,2023.2.2,MacIntel,29.94011976,,,,,,,,,,,,,,,,,,,,,,,,,,,,,,,,,FALSE,0,TRUE,0.77,0.27,6.97,-1.5,5.471945982,3.971945982,4.721945982,,gamble,lose,3.971945982,61.75191855,,,,,,,,510.0805,510.2806,0,0,0,0,,,,,,lose,Yes,,,,,,497.5761,497.7742,,,,,,,,,,,,,,,,,,,,,,,,,,,,,,,492.7399,494.072,right,1.3219,,494.0721,496.5741,496.5741,497.5749,0,23,23,23,1,497.7742,505.7783,"[""4""]",[6.868099999994115],[0.10079999999697975],4 ,space,7.4701,,505.7785,510.0804,0.79,3.7872,space,3.7786,,,,,,,,,,,,,,,,,,,,,,,,,,,,,
,,9999,2024-01-23_09h54.03.351,Mmi_OpenLoopFixed,2023.2.2,MacIntel,29.94011976,,,,,,,,,,,,,,,,,,,,,,,,,,,,,,,,,FALSE,1,TRUE,0.79,0.29,7.26,5,3.429881239,-1.570118761,0.929881239,,gamble,win,3.429881239,65.18179979,,,,,,,,516.7886,516.9838,0,0,0,0,,,,,,win,No,,,,,,,,,,,,,,,,,,,,,,,,,,,,,,,,,,,,,,510.2809,513.2826,,,,513.2827,515.7845,515.7845,516.7877,0,24,24,24,1,,,,,,,,,,,,,,,,,,,,,,,,,,,,,,,,,,,,,,,,,,,,
,,9999,2024-01-23_09h54.03.351,Mmi_OpenLoopFixed,2023.2.2,MacIntel,29.94011976,,,,,,,,,,,,,,,,,,,,,,,,,,,,,,,,,FALSE,1,TRUE,0.79,0.29,7.55,5,4.061921045,-0.938078955,1.561921045,,gamble,win,4.061921045,69.24372083,,,,,,,,522.6266,522.8222,0,0,0,0,,,,,,win,No,,,,,,,,,,,,,,,,,,,,,,,,,,,,,,,,,,,,,,516.9842,519.1238,right,2.119,,519.124,521.6243,521.6243,522.6257,0,25,25,25,1,,,,,,,,,,,,,,,,,,,,,,,,,,,,,,,,,,,,,,,,,,,,
,,9999,2024-01-23_09h54.03.351,Mmi_OpenLoopFixed,2023.2.2,MacIntel,29.94011976,,,,,,,,,,,,,,,,,,,,,,,,,,,,,,,,,FALSE,1,TRUE,0.79,0.29,7.84,5,3.945059745,-1.054940255,1.445059745,,gamble,win,3.945059745,73.18878058,,,,,,,,539.2986,539.5013,0,0,0,0,,,,,,win,Yes,,,,,,528.0605,528.2583,,,,,,,,,,,,,,,,,,,,,,,,,,,,,,,522.8227,524.5587,right,1.7137,,524.5589,527.0596,527.0597,528.06,0,26,26,26,1,528.2583,534.4634,"[""4""]",[4.892700000002947],[0.14350000000001728],4 ,space,5.6812,,534.4635,539.2985,0.8,4.2892,space,4.2811,,,,,,,,,,,,,,,,,,,,,,,,,,,,,
,,9999,2024-01-23_09h54.03.351,Mmi_OpenLoopFixed,2023.2.2,MacIntel,29.94011976,,,,,,,,,,,,,,,,,,,,,,,,,,,,,,,,,FALSE,1,FALSE,0.81,0.31,0.31,-5,1.137816156,-3.9,-1.362183844,,gamble,lose,-3.9,69.28878058,,,,,,,,558.0795,558.2796,0,0,0,0,,,,,,lose,No,,,,,,,,,,,,,,,,,,,,,,,,,,,,,543.2351,548.5705,0.81,4.8253,space,4.8183,,548.5706,551.5748,551.5889,554.5797,,,,554.5799,557.0813,557.0813,558.0785,0,0,0,0,1,,,,,,,,,,,,,,,,,539.5014,543.2349,space,3.6981,,,,,,,,,,,,,,,,,,,,,,,,
,,9999,2024-01-23_09h54.03.351,Mmi_OpenLoopFixed,2023.2.2,MacIntel,29.94011976,,,,,,,,,,,,,,,,,,,,,,,,,,,,,,,,,FALSE,1,TRUE,0.81,0.31,0.62,-5,3.243823121,-1.756176879,0.743823121,,gamble,lose,-1.756176879,67.5326037,,,,,,,,572.8199,573.0252,0,0,0,0,,,,,,lose,Yes,,,,,,564.7195,564.9146,,,,,,,,,,,,,,,,,,,,,,,,,,,,,,,558.2802,561.2145,right,2.9018,,561.2147,563.7152,563.7153,564.7182,0,1,1,1,1,564.9147,569.824,"[""minus"",""1""]","[2.9487000000029866,3.0719000000059395]","[0.09570000000292112,0.06829999999706615]",-1 ,space,4.3726,,569.8241,572.8198,0.59,2.4498,space,2.4413,,,,,,,,,,,,,,,,,,,,,,,,,,,,,
,,9999,2024-01-23_09h54.03.351,Mmi_OpenLoopFixed,2023.2.2,MacIntel,29.94011976,,,,,,,,,,,,,,,,,,,,,,,,,,,,,,,,,FALSE,1,TRUE,0.59,0.09,0.71,-5,-0.630506498,-5.62,-3.130506498,,certain,certain,-3.130506498,64.4020972,,,,,,,,579.0949,579.2942,0,0,0,0,,,,,,lose,No,,,,,,,,,,,,,,,,,,,,,,,,,,,,,,,,,,,,,,573.0256,575.5889,left,2.5395,,575.5889,578.095,578.095,579.0941,0,2,2,2,1,,,,,,,,,,,,,,,,,,,,,,,,,,,,,,,,,,,,,,,,,,,,
,,9999,2024-01-23_09h54.03.351,Mmi_OpenLoopFixed,2023.2.2,MacIntel,29.94011976,,,,,,,,,,,,,,,,,,,,,,,,,,,,,,,,,FALSE,1,FALSE,0.59,0.09,0.8,-5,3.648368704,-1.351631296,1.148368704,,certain,certain,1.148368704,65.55046591,,,,,,,,594.8353,595.0382,0,0,0,0,,,,,,lose,Yes,,,,,,584.4652,584.6645,,,,,,,,,,,,,,,,,,,,,,,,,,,,,,,579.2948,580.9636,left,1.6535,,580.9637,583.4647,583.4648,584.4641,0,3,3,3,1,584.6645,589.9372,"[""1""]",[3.9520999999940614],[0.0953000000118891],1 ,space,4.752,,589.9373,594.8352,0.59,4.3534,space,4.3449,,,,,,,,,,,,,,,,,,,,,,,,,,,,,
,,9999,2024-01-23_09h54.03.351,Mmi_OpenLoopFixed,2023.2.2,MacIntel,29.94011976,,,,,,,,,,,,,,,,,,,,,,,,,,,,,,,,,FALSE,1,FALSE,0.59,0.09,0.89,-5,-1.745337229,-6.72,-4.245337229,,certain,certain,-4.245337229,61.30512868,,,,,,,,600.8414,601.0406,0,0,0,0,,,,,,lose,No,,,,,,,,,,,,,,,,,,,,,,,,,,,,,,,,,,,,,,595.0389,597.3392,left,2.2711,,597.3394,599.8423,599.8423,600.8407,0,4,4,4,1,,,,,,,,,,,,,,,,,,,,,,,,,,,,,,,,,,,,,,,,,,,,
,,9999,2024-01-23_09h54.03.351,Mmi_OpenLoopFixed,2023.2.2,MacIntel,29.94011976,,,,,,,,,,,,,,,,,,,,,,,,,,,,,,,,,FALSE,0,FALSE,0.59,0.09,0.98,1.5,0.21538388,-1.28461612,-0.53461612,,certain,certain,-0.53461612,60.77051256,,,,,,,,606.8145,607.0128,0,0,0,0,,,,,,win,No,,,,,,,,,,,,,,,,,,,,,,,,,,,,,,,,,,,,,,601.0413,603.3105,left,2.2434,,603.3106,605.8135,605.8136,606.8136,0,5,5,5,1,,,,,,,,,,,,,,,,,,,,,,,,,,,,,,,,,,,,,,,,,,,,
,,9999,2024-01-23_09h54.03.351,Mmi_OpenLoopFixed,2023.2.2,MacIntel,29.94011976,,,,,,,,,,,,,,,,,,,,,,,,,,,,,,,,,FALSE,1,FALSE,0.59,0.09,1.07,-5,-1.630628875,-6.65,-4.130628875,,certain,certain,-4.130628875,56.63988368,,,,,,,,629.2949,629.4952,0,0,0,0,,,,,,lose,Yes,,,,,,612.582,612.7818,,,,,,,,,,,,,,,,,,,,,,,,,,,,,,,607.0131,609.0794,left,2.0444,,609.0795,611.5814,611.5815,612.5809,0,6,6,6,1,612.7819,618.7189,"[""minus"",""2""]","[4.281299999997032,4.487799999996923]","[0.09940000000585769,0.09990000000595955]",-2 ,space,5.4246,,618.7189,629.2948,0.46,10.0432,space,10.035,,,,,,,,,,,,,,,,,,,,,,,,,,,,,
,,9999,2024-01-23_09h54.03.351,Mmi_OpenLoopFixed,2023.2.2,MacIntel,29.94011976,,,,,,,,,,,,,,,,,,,,,,,,,,,,,,,,,FALSE,0,FALSE,0.46,-0.04,1.03,1.5,-1.22294575,-2.72294575,-1.97294575,,certain,certain,-1.97294575,54.66693793,,,,,,,,634.8993,635.0959,0,0,0,0,,,,,,win,No,,,,,,,,,,,,,,,,,,,,,,,,,,,,,,,,,,,,,,629.4959,631.3949,left,1.8606,,631.395,633.8966,633.8967,634.8983,0,7,7,7,1,,,,,,,,,,,,,,,,,,,,,,,,,,,,,,,,,,,,,,,,,,,,
,,9999,2024-01-23_09h54.03.351,Mmi_OpenLoopFixed,2023.2.2,MacIntel,29.94011976,,,,,,,,,,,,,,,,,,,,,,,,,,,,,,,,,FALSE,1,TRUE,0.46,-0.04,0.99,-5,4.587662627,-0.412337373,2.087662627,,certain,certain,2.087662627,56.75460056,,,,,,,,650.1036,650.3084,0,0,0,0,,,,,,lose,Yes,,,,,,639.9999,640.2008,,,,,,,,,,,,,,,,,,,,,,,,,,,,,,,635.0963,636.4991,left,1.3807,,636.4993,639.0004,639.0006,639.9986,0,8,8,8,1,640.2008,646.3385,"[""minus"",""1""]","[4.966000000000008,5.064700000002972]","[0.08600000000001273,0.08359999999413503]",-1 ,space,5.605,,646.3386,650.1036,0.55,3.2075,space,3.1991,,,,,,,,,,,,,,,,,,,,,,,,,,,,,
,,9999,2024-01-23_09h54.03.351,Mmi_OpenLoopFixed,2023.2.2,MacIntel,29.94011976,,,,,,,,,,,,,,,,,,,,,,,,,,,,,,,,,FALSE,1,FALSE,0.55,0.05,1.04,-5,3.558628984,-1.441371016,1.058628984,,certain,certain,1.058628984,57.81322954,,,,,,,,656.2094,656.4083,0,0,0,0,,,,,,lose,No,,,,,,,,,,,,,,,,,,,,,,,,,,,,,,,,,,,,,,650.3091,652.7088,left,2.3785,,652.7089,655.2083,655.2083,656.2085,0,9,9,9,1,,,,,,,,,,,,,,,,,,,,,,,,,,,,,,,,,,,,,,,,,,,,
,,9999,2024-01-23_09h54.03.351,Mmi_OpenLoopFixed,2023.2.2,MacIntel,29.94011976,,,,,,,,,,,,,,,,,,,,,,,,,,,,,,,,,FALSE,0,TRUE,0.55,0.05,1.09,1.5,0.53679584,-0.96320416,-0.21320416,,gamble,win,0.53679584,58.35002538,,,,,,,,662.9167,663.116,0,0,0,0,,,,,,win,No,,,,,,,,,,,,,,,,,,,,,,,,,,,,,,,,,,,,,,656.409,659.4115,,,,659.4115,661.9128,661.9129,662.9162,0,10,10,10,1,,,,,,,,,,,,,,,,,,,,,,,,,,,,,,,,,,,,,,,,,,,,
,,9999,2024-01-23_09h54.03.351,Mmi_OpenLoopFixed,2023.2.2,MacIntel,29.94011976,,,,,,,,,,,,,,,,,,,,,,,,,,,,,,,,,FALSE,0,TRUE,0.55,0.05,1.14,1.5,5.601776391,4.101776391,4.851776391,,gamble,win,5.601776391,63.95180177,,,,,,,,678.2886,678.492,0,0,0,0,,,,,,win,Yes,,,,,,668.85,669.0501,,,,,,,,,,,,,,,,,,,,,,,,,,,,,,,663.1166,665.3478,right,2.1962,,665.3479,667.8486,667.8486,668.849,0,11,11,11,1,669.0502,674.5568,"[""1""]",[4.1110999999939395],[0.11930000001200369],1 ,space,4.9355,,674.557,678.2886,0.68,3.2184,space,3.2108,,,,,,,,,,,,,,,,,,,,,,,,,,,,,
,,9999,2024-01-23_09h54.03.351,Mmi_OpenLoopFixed,2023.2.2,MacIntel,29.94011976,,,,,,,,,,,,,,,,,,,,,,,,,,,,,,,,,FALSE,1,TRUE,0.68,0.18,1.32,-5,-1.724431356,-6.74,-4.224431356,,certain,certain,-4.224431356,59.72737042,,,,,,,,684.5986,684.7951,0,0,0,0,,,,,,lose,No,,,,,,,,,,,,,,,,,,,,,,,,,,,,,,,,,,,,,,678.4924,681.0913,left,2.5656,,681.0914,683.5952,683.5953,684.5977,0,12,12,12,1,,,,,,,,,,,,,,,,,,,,,,,,,,,,,,,,,,,,,,,,,,,,
,,9999,2024-01-23_09h54.03.351,Mmi_OpenLoopFixed,2023.2.2,MacIntel,29.94011976,,,,,,,,,,,,,,,,,,,,,,,,,,,,,,,,,FALSE,1,FALSE,0.68,0.18,1.5,-5,1.509954877,-3.51,-0.990045123,,certain,certain,-0.990045123,58.7373253,,,,,,,,699.5708,699.7706,0,0,0,0,,,,,,lose,Yes,,,,,,690.1003,690.2959,,,,,,,,,,,,,,,,,,,,,,,,,,,,,,,684.7957,686.5956,left,1.7746,,686.5957,689.1,689.1001,690.0992,0,13,13,13,1,690.2959,696.7374,"[""minus"",""1""]","[5.067100000008963,5.205400000005966]","[0.10409999999399133,0.09550000000001546]",-1 ,space,5.9188,,696.7375,699.5708,0.53,2.2854,space,2.2767,,,,,,,,,,,,,,,,,,,,,,,,,,,,,
,,9999,2024-01-23_09h54.03.351,Mmi_OpenLoopFixed,2023.2.2,MacIntel,29.94011976,,,,,,,,,,,,,,,,,,,,,,,,,,,,,,,,,FALSE,0,FALSE,0.53,0.03,1.53,1.5,1.052467657,-0.447532343,0.302467657,,certain,certain,0.302467657,59.03979295,,,,,,,,704.274,704.4753,0,0,0,0,,,,,,win,No,,,,,,,,,,,,,,,,,,,,,,,,,,,,,,,,,,,,,,699.7712,700.7718,left,0.977,,700.7719,703.2755,703.2755,704.2731,0,14,14,14,1,,,,,,,,,,,,,,,,,,,,,,,,,,,,,,,,,,,,,,,,,,,,
,,9999,2024-01-23_09h54.03.351,Mmi_OpenLoopFixed,2023.2.2,MacIntel,29.94011976,,,,,,,,,,,,,,,,,,,,,,,,,,,,,,,,,FALSE,1,TRUE,0.53,0.03,1.56,-5,4.124134305,-0.875865695,1.624134305,,gamble,lose,-0.875865695,58.16392726,,,,,,,,718.5143,718.7179,0,0,0,0,,,,,,lose,Yes,,,,,,710.9807,711.1769,,,,,,,,,,,,,,,,,,,,,,,,,,,,,,,704.4759,707.4753,,,,707.4754,709.9769,709.977,710.9796,0,15,15,15,1,711.177,716.1512,"[""1""]",[3.8915000000000646],[0.1121000000089225],1 ,space,4.4615,,716.1513,718.5143,0.51,1.8106,space,1.8024,,,,,,,,,,,,,,,,,,,,,,,,,,,,,
,,9999,2024-01-23_09h54.03.351,Mmi_OpenLoopFixed,2023.2.2,MacIntel,29.94011976,,,,,,,,,,,,,,,,,,,,,,,,,,,,,,,,,FALSE,1,TRUE,0.51,0.01,1.57,-5,4.361599209,-0.638400791,1.861599209,,certain,certain,1.861599209,60.02552647,,,,,,,,723.8226,724.0196,0,0,0,0,,,,,,lose,No,,,,,,,,,,,,,,,,,,,,,,,,,,,,,,,,,,,,,,718.7183,720.3156,left,1.5874,,720.3157,722.819,722.8191,723.8219,0,16,16,16,1,,,,,,,,,,,,,,,,,,,,,,,,,,,,,,,,,,,,,,,,,,,,
,,9999,2024-01-23_09h54.03.351,Mmi_OpenLoopFixed,2023.2.2,MacIntel,29.94011976,,,,,,,,,,,,,,,,,,,,,,,,,,,,,,,,,FALSE,1,FALSE,0.51,0.01,1.58,-5,-0.505019164,-5.49,-3.005019164,,gamble,lose,-5.49,54.53552647,,,,,,,,730.5264,730.7261,0,0,0,0,,,,,,lose,No,,,,,,,,,,,,,,,,,,,,,,,,,,,,,,,,,,,,,,724.0201,727.0208,,,,727.021,729.5249,729.5249,730.5254,0,17,17,17,1,,,,,,,,,,,,,,,,,,,,,,,,,,,,,,,,,,,,,,,,,,,,
,,9999,2024-01-23_09h54.03.351,Mmi_OpenLoopFixed,2023.2.2,MacIntel,29.94011976,,,,,,,,,,,,,,,,,,,,,,,,,,,,,,,,,FALSE,1,TRUE,0.51,0.01,1.59,-5,1.918115166,-3.12,-0.581884834,,certain,certain,-0.581884834,53.95364163,,,,,,,,745.4323,745.6346,0,0,0,0,,,,,,lose,Yes,,,,,,735.429,735.6301,,,,,,,,,,,,,,,,,,,,,,,,,,,,,,,730.7266,731.9233,left,1.1861,,731.9234,734.4242,734.4242,735.4278,0,18,18,18,1,735.6302,742.2317,"[""minus"",""2""]","[4.798000000000002,5.630499999999984]","[0.08749999999997726,0.11199999999996635]",-2 ,space,6.0368,,742.2319,745.4322,0.48,2.6737,space,2.6655,,,,,,,,,,,,,,,,,,,,,,,,,,,,,
,,9999,2024-01-23_09h54.03.351,Mmi_OpenLoopFixed,2023.2.2,MacIntel,29.94011976,,,,,,,,,,,,,,,,,,,,,,,,,,,,,,,,,FALSE,0,TRUE,0.48,-0.02,1.57,1.5,1.564689606,0.064689606,0.814689606,,gamble,win,1.564689606,55.51833124,,,,,,,,751.9725,752.1727,0,0,0,0,,,,,,win,No,,,,,,,,,,,,,,,,,,,,,,,,,,,,,,,,,,,,,,745.6352,748.4677,right,2.7986,,748.4678,750.9744,750.9744,751.972,0,19,19,19,1,,,,,,,,,,,,,,,,,,,,,,,,,,,,,,,,,,,,,,,,,,,,
,,9999,2024-01-23_09h54.03.351,Mmi_OpenLoopFixed,2023.2.2,MacIntel,29.94011976,,,,,,,,,,,,,,,,,,,,,,,,,,,,,,,,,FALSE,0,FALSE,0.48,-0.02,1.55,1.5,3.170504081,1.670504081,2.420504081,,gamble,win,3.170504081,58.68883532,,,,,,,,770.9847,771.1826,0,0,0,0,,,,,,win,Yes,,,,,,757.075,757.2726,,,,,,,,,,,,,,,,,,,,,,,,,,,,,,,752.1731,753.5748,right,1.3902,,753.5748,756.0748,756.0748,757.074,0,20,20,20,1,757.2726,762.4462,"[""2""]",[1.7287000000029593],[0.06850000000008549],2 ,space,4.6551,,762.4462,770.9847,0.69,8.0371,space,8.0301,,,,,,,,,,,,,,,,,,,,,,,,,,,,,
,,9999,2024-01-23_09h54.03.351,Mmi_OpenLoopFixed,2023.2.2,MacIntel,29.94011976,,,,,,,,,,,,,,,,,,,,,,,,,,,,,,,,,FALSE,1,FALSE,0.69,0.19,1.74,-5,3.674918647,-1.325081353,1.174918647,,gamble,lose,-1.325081353,57.36375397,,,,,,,,777.69,777.891,0,0,0,0,,,,,,lose,No,,,,,,,,,,,,,,,,,,,,,,,,,,,,,,,,,,,,,,771.1832,774.1876,,,,774.1877,776.6862,776.6862,777.6891,0,21,21,21,1,,,,,,,,,,,,,,,,,,,,,,,,,,,,,,,,,,,,,,,,,,,,
,,9999,2024-01-23_09h54.03.351,Mmi_OpenLoopFixed,2023.2.2,MacIntel,29.94011976,,,,,,,,,,,,,,,,,,,,,,,,,,,,,,,,,FALSE,0,FALSE,0.69,0.19,1.93,1.5,4.037493456,2.537493456,3.287493456,,gamble,win,4.037493456,61.40124742,,,,,,,,793.0286,793.2348,0,0,0,0,,,,,,win,Yes,,,,,,783.3914,783.5944,,,,,,,,,,,,,,,,,,,,,,,,,,,,,,,777.8915,779.8915,right,1.9872,,779.8916,782.3923,782.3923,783.3902,0,22,22,22,1,783.5944,787.2616,"[""2""]",[2.606600000008939],[0.08779999999705979],2 ,space,3.1195,,787.2618,793.0285,0.72,5.2637,space,5.2568,,,,,,,,,,,,,,,,,,,,,,,,,,,,,
,,9999,2024-01-23_09h54.03.351,Mmi_OpenLoopFixed,2023.2.2,MacIntel,29.94011976,,,,,,,,,,,,,,,,,,,,,,,,,,,,,,,,,FALSE,1,TRUE,0.72,0.22,2.15,-5,0.208200616,-4.75,-2.291799384,,certain,certain,-2.291799384,59.10944804,,,,,,,,798.9044,799.1012,0,0,0,0,,,,,,lose,No,,,,,,,,,,,,,,,,,,,,,,,,,,,,,,,,,,,,,,793.2354,795.3992,left,2.1301,,795.3993,797.9008,797.9009,798.9035,0,23,23,23,1,,,,,,,,,,,,,,,,,,,,,,,,,,,,,,,,,,,,,,,,,,,,
,,9999,2024-01-23_09h54.03.351,Mmi_OpenLoopFixed,2023.2.2,MacIntel,29.94011976,,,,,,,,,,,,,,,,,,,,,,,,,,,,,,,,,FALSE,1,FALSE,0.72,0.22,2.37,-5,3.437621415,-1.562378585,0.937621415,,certain,certain,0.937621415,60.04706945,,,,,,,,804.3419,804.5393,0,0,0,0,,,,,,lose,No,,,,,,,,,,,,,,,,,,,,,,,,,,,,,,,,,,,,,,799.1016,800.838,left,1.7192,,800.8381,803.3369,803.3371,804.3409,0,24,24,24,1,,,,,,,,,,,,,,,,,,,,,,,,,,,,,,,,,,,,,,,,,,,,
,,9999,2024-01-23_09h54.03.351,Mmi_OpenLoopFixed,2023.2.2,MacIntel,29.94011976,,,,,,,,,,,,,,,,,,,,,,,,,,,,,,,,,FALSE,0,TRUE,0.72,0.22,2.59,1.5,3.240784032,1.740784032,2.490784032,,gamble,win,3.240784032,63.28785349,,,,,,,,819.6141,819.8183,0,0,0,0,,,,,,win,Yes,,,,,,809.3761,809.5759,,,,,,,,,,,,,,,,,,,,,,,,,,,,,,,804.5398,805.8753,right,1.3211,,805.8754,808.3727,808.3727,809.375,0,25,25,25,1,809.576,815.3821,"[""2""]",[4.335799999996993],[0.08630000001187454],2 ,space,5.2457,,815.3822,819.6141,0.71,3.6854,space,3.6777,,,,,,,,,,,,,,,,,,,,,,,,,,,,,
,,9999,2024-01-23_09h54.03.351,Mmi_OpenLoopFixed,2023.2.2,MacIntel,29.94011976,,,,,,,,,,,,,,,,,,,,,,,,,,,,,,,,,FALSE,1,FALSE,0.71,0.21,2.8,-5,-0.699106118,-5.72,-3.199106118,,gamble,lose,-5.72,57.56785349,,,,,,,,826.3192,826.5209,0,0,0,0,,,,,,lose,No,,,,,,,,,,,,,,,,,,,,,,,,,,,,,,,,,,,,,,819.8189,822.8206,,,,822.8207,825.3166,825.3166,826.3183,0,26,26,26,1,,,,,,,,,,,,,,,,,,,,,,,,,,,,,,,,,,,,,,,,,,,,
,,9999,2024-01-23_09h54.03.351,Mmi_OpenLoopFixed,2023.2.2,MacIntel,29.94011976,,,,,,,,,,,,,,,,,,,,,,,,,,,,,,,,,FALSE,0,FALSE,0.38,-0.12,-0.12,-1.5,-1.048018548,-2.548018548,-1.798018548,,certain,certain,-1.798018548,55.76983494,,,,,,,,860.4446,860.6441,0,0,0,0,,,,,,lose,Yes,,,,,,848.2037,848.4028,,,,,,,,,,,,,,,,,,,,,,835.124,839.0593,0.38,3.4276,space,3.42,,839.0593,842.0646,842.0757,844.6985,left,2.5882,,844.6987,847.198,847.198,848.2028,0,0,0,0,1,848.4028,852.5686,"[""minus"",""2""]","[2.1326999999880627,2.610899999991034]","[0.07040000000597502,0.08000000000004093]",-2 ,space,3.6162,,852.5687,860.4446,0.61,7.3734,space,7.3657,,826.5211,835.1232,space,8.5823,,,,,,,,,,,,,,,,,,,,,,,,
,,9999,2024-01-23_09h54.03.351,Mmi_OpenLoopFixed,2023.2.2,MacIntel,29.94011976,,,,,,,,,,,,,,,,,,,,,,,,,,,,,,,,,FALSE,1,TRUE,0.61,0.11,-0.01,5,1.986912416,-3.113087584,-0.513087584,,gamble,win,1.986912416,57.75674735,,,,,,,,867.1465,867.3476,0,0,0,0,,,,,,win,No,,,,,,,,,,,,,,,,,,,,,,,,,,,,,,,,,,,,,,860.6445,863.6456,,,,863.6458,866.1443,866.1445,867.1455,0,1,1,1,1,,,,,,,,,,,,,,,,,,,,,,,,,,,,,,,,,,,,,,,,,,,,
,,9999,2024-01-23_09h54.03.351,Mmi_OpenLoopFixed,2023.2.2,MacIntel,29.94011976,,,,,,,,,,,,,,,,,,,,,,,,,,,,,,,,,FALSE,1,TRUE,0.61,0.11,0.1,5,5.677951668,0.677951668,3.177951668,,gamble,win,5.677951668,63.43469902,,,,,,,,872.916,873.118,0,0,0,0,,,,,,win,No,,,,,,,,,,,,,,,,,,,,,,,,,,,,,,,,,,,,,,867.3481,869.4166,right,2.0308,,869.4167,871.9143,871.9143,872.9153,0,2,2,2,1,,,,,,,,,,,,,,,,,,,,,,,,,,,,,,,,,,,,,,,,,,,,
,,9999,2024-01-23_09h54.03.351,Mmi_OpenLoopFixed,2023.2.2,MacIntel,29.94011976,,,,,,,,,,,,,,,,,,,,,,,,,,,,,,,,,FALSE,1,FALSE,0.61,0.11,0.21,5,0.723085813,-4.22,-1.776914187,,certain,certain,-1.776914187,61.65778484,,,,,,,,888.2954,888.4957,0,0,0,0,,,,,,win,Yes,,,,,,879.119,879.321,,,,,,,,,,,,,,,,,,,,,,,,,,,,,,,873.1184,875.616,left,2.4781,,875.6161,878.1208,878.1208,879.1181,0,3,3,3,1,879.321,882.7594,"[""minus"",""2""]","[1.844500000000039,2.5815000000000055]","[0.12870000000293658,0.10249999999996362]",-2 ,space,2.9011,,882.7596,888.2953,0.35,5.0021,space,4.9939,,,,,,,,,,,,,,,,,,,,,,,,,,,,,
,,9999,2024-01-23_09h54.03.351,Mmi_OpenLoopFixed,2023.2.2,MacIntel,29.94011976,,,,,,,,,,,,,,,,,,,,,,,,,,,,,,,,,FALSE,1,TRUE,0.35,-0.15,0.06,5,2.682142008,-2.317857992,0.182142008,,gamble,win,2.682142008,64.33992684,,,,,,,,894.7344,894.9316,0,0,0,0,,,,,,win,No,,,,,,,,,,,,,,,,,,,,,,,,,,,,,,,,,,,,,,888.4962,891.2303,right,2.7108,,891.2304,893.7288,893.7289,894.7336,0,4,4,4,1,,,,,,,,,,,,,,,,,,,,,,,,,,,,,,,,,,,,,,,,,,,,
,,9999,2024-01-23_09h54.03.351,Mmi_OpenLoopFixed,2023.2.2,MacIntel,29.94011976,,,,,,,,,,,,,,,,,,,,,,,,,,,,,,,,,FALSE,1,FALSE,0.35,-0.15,-0.09,5,-0.209504484,-5.23,-2.709504484,,gamble,win,-0.209504484,64.13042236,,,,,,,,916.9774,917.177,0,0,0,0,,,,,,win,Yes,,,,,,901.4344,901.6356,,,,,,,,,,,,,,,,,,,,,,,,,,,,,,,894.9322,897.9344,,,,897.9345,900.4359,900.436,901.4333,0,5,5,5,1,901.6357,907.2421,"[""0""]",[4.658299999997098],[0.12270000000296477],0 ,space,5.0698,,907.2422,916.9773,0.64,9.1863,space,9.1778,,,,,,,,,,,,,,,,,,,,,,,,,,,,,
,,9999,2024-01-23_09h54.03.351,Mmi_OpenLoopFixed,2023.2.2,MacIntel,29.94011976,,,,,,,,,,,,,,,,,,,,,,,,,,,,,,,,,FALSE,1,FALSE,0.64,0.14,0.05,5,4.010136474,-0.989863526,1.510136474,,gamble,win,4.010136474,68.14055883,,,,,,,,923.5824,923.7849,0,0,0,0,,,,,,win,No,,,,,,,,,,,,,,,,,,,,,,,,,,,,,,,,,,,,,,917.1776,920.0812,right,2.8694,,920.0813,922.5813,922.5814,923.5814,0,6,6,6,1,,,,,,,,,,,,,,,,,,,,,,,,,,,,,,,,,,,,,,,,,,,,
,,9999,2024-01-23_09h54.03.351,Mmi_OpenLoopFixed,2023.2.2,MacIntel,29.94011976,,,,,,,,,,,,,,,,,,,,,,,,,,,,,,,,,FALSE,1,FALSE,0.64,0.14,0.19,5,0.040760924,-4.97,-2.459239076,,gamble,win,0.040760924,68.18131976,,,,,,,,945.6281,945.8314,0,0,0,0,,,,,,win,Yes,,,,,,930.2873,930.4889,,,,,,,,,,,,,,,,,,,,,,,,,,,,,,,923.7856,926.7847,,,,926.7847,929.2839,929.2841,930.286,0,7,7,7,1,930.489,942.3642,"[""2"",""N/A"",""minus"",""1""]","[7.431600000008871,8.848900000005983,10.821799999996983,10.941600000008862]","[0.10500000000001819,0.13979999999696702,0.07870000000298205,0.09779999999705069]",-1 ,space,11.3168,,942.3645,945.628,0.59,2.718,space,2.7101,,,,,,,,,,,,,,,,,,,,,,,,,,,,,
,,9999,2024-01-23_09h54.03.351,Mmi_OpenLoopFixed,2023.2.2,MacIntel,29.94011976,,,,,,,,,,,,,,,,,,,,,,,,,,,,,,,,,FALSE,0,TRUE,0.59,0.09,0.28,-1.5,2.047656413,0.547656413,1.297656413,,gamble,lose,0.547656413,68.72897617,,,,,,,,950.7992,951.0004,0,0,0,0,,,,,,lose,No,,,,,,,,,,,,,,,,,,,,,,,,,,,,,,,,,,,,,,945.8322,947.2988,right,1.4286,,947.2989,949.7988,949.7989,950.7983,0,8,8,8,1,,,,,,,,,,,,,,,,,,,,,,,,,,,,,,,,,,,,,,,,,,,,
,,9999,2024-01-23_09h54.03.351,Mmi_OpenLoopFixed,2023.2.2,MacIntel,29.94011976,,,,,,,,,,,,,,,,,,,,,,,,,,,,,,,,,FALSE,1,TRUE,0.59,0.09,0.37,5,3.592613781,-1.407386219,1.092613781,,certain,certain,1.092613781,69.82158995,,,,,,,,956.5697,956.7709,0,0,0,0,,,,,,win,No,,,,,,,,,,,,,,,,,,,,,,,,,,,,,,,,,,,,,,951.0009,953.0697,left,2.0357,,953.0698,955.5718,955.5718,956.5689,0,9,9,9,1,,,,,,,,,,,,,,,,,,,,,,,,,,,,,,,,,,,,,,,,,,,,
,,9999,2024-01-23_09h54.03.351,Mmi_OpenLoopFixed,2023.2.2,MacIntel,29.94011976,,,,,,,,,,,,,,,,,,,,,,,,,,,,,,,,,FALSE,1,FALSE,0.59,0.09,0.46,5,5.12722602,0.12722602,2.62722602,,gamble,win,5.12722602,74.94881597,,,,,,,,973.9821,974.184,0,0,0,0,,,,,,win,Yes,,,,,,963.276,963.475,,,,,,,,,,,,,,,,,,,,,,,,,,,,,,,956.7715,959.7741,,,,959.7742,962.275,962.2751,963.275,0,10,10,10,1,963.4751,970.9478,"[""2""]",[6.743000000000052],[0.09370000000296841],2 ,space,6.9493,,970.9478,973.9821,0.69,2.5203,space,2.5122,,,,,,,,,,,,,,,,,,,,,,,,,,,,,
,,9999,2024-01-23_09h54.03.351,Mmi_OpenLoopFixed,2023.2.2,MacIntel,29.94011976,,,,,,,,,,,,,,,,,,,,,,,,,,,,,,,,,FALSE,1,TRUE,0.69,0.19,0.65,5,5.674331402,0.674331402,3.174331402,,gamble,win,5.674331402,80.62314737,,,,,,,,978.9551,979.1503,0,0,0,0,,,,,,win,No,,,,,,,,,,,,,,,,,,,,,,,,,,,,,,,,,,,,,,974.1844,975.4476,right,1.2541,,975.4477,977.9496,977.9496,978.9544,0,11,11,11,1,,,,,,,,,,,,,,,,,,,,,,,,,,,,,,,,,,,,,,,,,,,,
,,9999,2024-01-23_09h54.03.351,Mmi_OpenLoopFixed,2023.2.2,MacIntel,29.94011976,,,,,,,,,,,,,,,,,,,,,,,,,,,,,,,,,FALSE,1,FALSE,0.69,0.19,0.84,5,2.37772424,-2.62227576,-0.12227576,,gamble,win,2.37772424,83.00087161,,,,,,,,994.3933,994.5958,0,0,0,0,,,,,,win,Yes,,,,,,985.0259,985.2247,,,,,,,,,,,,,,,,,,,,,,,,,,,,,,,979.1508,981.5177,right,2.3534,,981.5178,984.024,984.0241,985.0248,0,12,12,12,1,985.2247,989.3604,"[""2""]",[3.173400000005927],[0.1009000000060496],2 ,space,3.5734,,989.3605,994.3931,0.79,4.4851,space,4.4768,,,,,,,,,,,,,,,,,,,,,,,,,,,,,
,,9999,2024-01-23_09h54.03.351,Mmi_OpenLoopFixed,2023.2.2,MacIntel,29.94011976,,,,,,,,,,,,,,,,,,,,,,,,,,,,,,,,,FALSE,0,FALSE,0.79,0.29,1.13,-1.5,-0.891004457,-2.391004457,-1.641004457,,certain,certain,-1.641004457,81.35986716,,,,,,,,999.7349,999.9319,0,0,0,0,,,,,,lose,No,,,,,,,,,,,,,,,,,,,,,,,,,,,,,,,,,,,,,,994.5964,996.2318,left,1.5985,,996.232,998.7329,998.733,999.734,0,13,13,13,1,,,,,,,,,,,,,,,,,,,,,,,,,,,,,,,,,,,,,,,,,,,,
,,9999,2024-01-23_09h54.03.351,Mmi_OpenLoopFixed,2023.2.2,MacIntel,29.94011976,,,,,,,,,,,,,,,,,,,,,,,,,,,,,,,,,FALSE,0,TRUE,0.79,0.29,1.42,-1.5,-0.805647956,-2.305647956,-1.555647956,,certain,certain,-1.555647956,79.8042192,,,,,,,,1005.6064,1005.8029,0,0,0,0,,,,,,lose,No,,,,,,,,,,,,,,,,,,,,,,,,,,,,,,,,,,,,,,999.9325,1002.1005,left,2.1522,,1002.1005,1004.6002,1004.6002,1005.6055,0,14,14,14,1,,,,,,,,,,,,,,,,,,,,,,,,,,,,,,,,,,,,,,,,,,,,
,,9999,2024-01-23_09h54.03.351,Mmi_OpenLoopFixed,2023.2.2,MacIntel,29.94011976,,,,,,,,,,,,,,,,,,,,,,,,,,,,,,,,,FALSE,0,TRUE,0.79,0.29,1.71,-1.5,0.060066033,-1.439933967,-0.689933967,,certain,certain,-0.689933967,79.11428523,,,,,,,,1019.7119,1019.9129,0,0,0,0,,,,,,lose,Yes,,,,,,1012.142,1012.3415,,,,,,,,,,,,,,,,,,,,,,,,,,,,,,,1005.8036,1008.6389,left,2.8174,,1008.639,1011.1397,1011.1398,1012.1407,0,15,15,15,1,1012.3416,1016.4441,"[""minus"",""2"",""N/A"",""1""]","[1.6023999999911211,1.9997999999970943,2.9232999999969707,3.076399999991054]","[0.15270000000305117,0.08199999999987995,0.11950000000001637,0.1021000000089316]",-1 ,space,3.5474,,1016.4442,1019.7119,0.34,2.712,space,2.7038,,,,,,,,,,,,,,,,,,,,,,,,,,,,,
,,9999,2024-01-23_09h54.03.351,Mmi_OpenLoopFixed,2023.2.2,MacIntel,29.94011976,,,,,,,,,,,,,,,,,,,,,,,,,,,,,,,,,FALSE,1,TRUE,0.34,-0.16,1.55,5,4.725738048,-0.274261952,2.225738048,,gamble,win,4.725738048,83.84002328,,,,,,,,1025.018,1025.2143,0,0,0,0,,,,,,win,No,,,,,,,,,,,,,,,,,,,,,,,,,,,,,,,,,,,,,,1019.9135,1021.5144,right,1.5612,,1021.5144,1024.0165,1024.0166,1025.0172,0,16,16,16,1,,,,,,,,,,,,,,,,,,,,,,,,,,,,,,,,,,,,,,,,,,,,
,,9999,2024-01-23_09h54.03.351,Mmi_OpenLoopFixed,2023.2.2,MacIntel,29.94011976,,,,,,,,,,,,,,,,,,,,,,,,,,,,,,,,,FALSE,1,FALSE,0.34,-0.16,1.39,5,0.034257432,-4.95,-2.465742568,,gamble,win,0.034257432,83.87428071,,,,,,,,1045.8593,1046.0621,0,0,0,0,,,,,,win,Yes,,,,,,1031.7222,1031.9217,,,,,,,,,,,,,,,,,,,,,,,,,,,,,,,1025.2149,1028.217,,,,1028.2171,1030.7183,1030.7183,1031.7211,0,17,17,17,1,1031.9217,1035.8877,"[""1""]",[2.9892000000031658],[0.11099999999987631],1 ,space,3.4012,,1035.8879,1045.8592,0.65,9.4342,space,9.4259,,,,,,,,,,,,,,,,,,,,,,,,,,,,,
,,9999,2024-01-23_09h54.03.351,Mmi_OpenLoopFixed,2023.2.2,MacIntel,29.94011976,,,,,,,,,,,,,,,,,,,,,,,,,,,,,,,,,FALSE,0,FALSE,0.65,0.15,1.54,-1.5,4.514278609,3.014278609,3.764278609,,gamble,lose,3.014278609,86.88855932,,,,,,,,1052.1978,1052.3982,0,0,0,0,,,,,,lose,No,,,,,,,,,,,,,,,,,,,,,,,,,,,,,,,,,,,,,,1046.0626,1048.6973,right,2.6012,,1048.6974,1051.1979,1051.1979,1052.197,0,18,18,18,1,,,,,,,,,,,,,,,,,,,,,,,,,,,,,,,,,,,,,,,,,,,,
,,9999,2024-01-23_09h54.03.351,Mmi_OpenLoopFixed,2023.2.2,MacIntel,29.94011976,,,,,,,,,,,,,,,,,,,,,,,,,,,,,,,,,FALSE,1,TRUE,0.65,0.15,1.69,5,-0.05180025,-5.15180025,-2.55180025,,gamble,win,-0.05180025,86.83675907,,,,,,,,1065.5062,1065.7099,0,0,0,0,,,,,,win,Yes,,,,,,1058.9062,1059.102,,,,,,,,,,,,,,,,,,,,,,,,,,,,,,,1052.3988,1055.4009,,,,1055.4011,1057.9017,1057.9017,1058.9049,0,19,19,19,1,1059.102,1062.0704,"[""2""]",[2.2059000000058404],[0.10929999999711981],2 ,space,2.4435,,1062.0704,1065.5061,0.79,2.9261,space,2.919,,,,,,,,,,,,,,,,,,,,,,,,,,,,,
,,9999,2024-01-23_09h54.03.351,Mmi_OpenLoopFixed,2023.2.2,MacIntel,29.94011976,,,,,,,,,,,,,,,,,,,,,,,,,,,,,,,,,FALSE,1,TRUE,0.79,0.29,1.98,5,5.434108985,0.434108985,2.934108985,,gamble,win,5.434108985,92.27086806,,,,,,,,1070.5771,1070.7781,0,0,0,0,,,,,,win,No,,,,,,,,,,,,,,,,,,,,,,,,,,,,,,,,,,,,,,1065.7103,1067.0754,right,1.346,,1067.0756,1069.577,1069.577,1070.5763,0,20,20,20,1,,,,,,,,,,,,,,,,,,,,,,,,,,,,,,,,,,,,,,,,,,,,
,,9999,2024-01-23_09h54.03.351,Mmi_OpenLoopFixed,2023.2.2,MacIntel,29.94011976,,,,,,,,,,,,,,,,,,,,,,,,,,,,,,,,,FALSE,1,TRUE,0.79,0.29,2.27,5,0.799870128,-4.220129872,-1.700129872,,gamble,win,0.799870128,93.07073818,,,,,,,,1075.9844,1076.1823,0,0,0,0,,,,,,win,No,,,,,,,,,,,,,,,,,,,,,,,,,,,,,,,,,,,,,,1070.7787,1072.4784,right,1.669,,1072.4786,1074.981,1074.981,1075.9836,0,21,21,21,1,,,,,,,,,,,,,,,,,,,,,,,,,,,,,,,,,,,,,,,,,,,,
,,9999,2024-01-23_09h54.03.351,Mmi_OpenLoopFixed,2023.2.2,MacIntel,29.94011976,,,,,,,,,,,,,,,,,,,,,,,,,,,,,,,,,FALSE,1,TRUE,0.79,0.29,2.56,5,-0.427237997,-5.417237997,-2.927237997,,certain,certain,-2.927237997,90.14350019,,,,,,,,1090.1546,1090.3583,0,0,0,0,,,,,,win,Yes,,,,,,1081.0184,1081.2188,,,,,,,,,,,,,,,,,,,,,,,,,,,,,,,1076.183,1077.5185,left,1.3039,,1077.5186,1080.0197,1080.0198,1081.0172,0,22,22,22,1,1081.2188,1084.6232,"[""1""]",[2.4367000000031567],[0.10409999999387765],1 ,space,2.8442,,1084.6234,1090.1546,0.59,4.9788,space,4.9707,,,,,,,,,,,,,,,,,,,,,,,,,,,,,
,,9999,2024-01-23_09h54.03.351,Mmi_OpenLoopFixed,2023.2.2,MacIntel,29.94011976,,,,,,,,,,,,,,,,,,,,,,,,,,,,,,,,,FALSE,0,FALSE,0.59,0.09,2.65,-1.5,0.008670864,-1.491329136,-0.741329136,,certain,certain,-0.741329136,89.40217105,,,,,,,,1095.4595,1095.662,0,0,0,0,,,,,,lose,No,,,,,,,,,,,,,,,,,,,,,,,,,,,,,,,,,,,,,,1090.3588,1091.9608,left,1.566,,1091.9608,1094.4584,1094.4584,1095.4591,0,23,23,23,1,,,,,,,,,,,,,,,,,,,,,,,,,,,,,,,,,,,,,,,,,,,,
,,9999,2024-01-23_09h54.03.351,Mmi_OpenLoopFixed,2023.2.2,MacIntel,29.94011976,,,,,,,,,,,,,,,,,,,,,,,,,,,,,,,,,FALSE,1,TRUE,0.59,0.09,2.74,5,2.928357409,-2.071642591,0.428357409,,certain,certain,0.428357409,89.83052846,,,,,,,,1115.4376,1115.6376,0,0,0,0,,,,,,win,Yes,,,,,,1101.765,1101.966,,,,,,,,,,,,,,,,,,,,,,,,,,,,,,,1095.6623,1098.2639,left,2.5893,,1098.264,1100.7649,1100.765,1101.7638,0,24,24,24,1,1101.9662,1110.8395,"[""2""]",[7.971800000011854],[0.11029999999709617],2 ,space,8.3463,,1110.8396,1115.4376,0.69,4.0452,space,4.0362,,,,,,,,,,,,,,,,,,,,,,,,,,,,,
,,9999,2024-01-23_09h54.03.351,Mmi_OpenLoopFixed,2023.2.2,MacIntel,29.94011976,,,,,,,,,,,,,,,,,,,,,,,,,,,,,,,,,FALSE,0,FALSE,0.69,0.19,2.93,-1.5,1.786310791,0.286310791,1.036310791,,gamble,lose,0.286310791,90.11683925,,,,,,,,1121.0778,1121.2785,0,0,0,0,,,,,,lose,No,,,,,,,,,,,,,,,,,,,,,,,,,,,,,,,,,,,,,,1115.6382,1117.577,right,1.9224,,1117.5771,1120.0745,1120.0745,1121.0772,0,25,25,25,1,,,,,,,,,,,,,,,,,,,,,,,,,,,,,,,,,,,,,,,,,,,,
,,9999,2024-01-23_09h54.03.351,Mmi_OpenLoopFixed,2023.2.2,MacIntel,29.94011976,,,,,,,,,,,,,,,,,,,,,,,,,,,,,,,,,FALSE,0,FALSE,0.69,0.19,3.12,-1.5,0.813276057,-0.686723943,0.063276057,,gamble,lose,-0.686723943,89.43011531,,,,,,,,1135.5509,1135.7528,0,0,0,0,,,,,,lose,Yes,,,,,,1126.5805,1126.7789,,,,,,,,,,,,,,,,,,,,,,,,,,,,,,,1121.2791,1123.0792,right,1.7821,,1123.0793,1125.5787,1125.5788,1126.5799,0,26,26,26,1,1126.779,1132.3505,"[""2""]",[4.278099999994083],[0.10400000000004184],2 ,space,5.0474,,1132.3505,1135.5509,0.63,2.6937,space,2.6858,,,,,,,,,,,,,,,,,,,,,,,,,,,,,
,,9999,2024-01-23_09h54.03.351,Mmi_OpenLoopFixed,2023.2.2,MacIntel,29.94011976,,,,,,,,,,,,,,,,,,,,,,,,,,,,,,,,,,,,,,,,,,,,,,,,,,,,,,,,,,,,,,,,,,,,,,,,,,,,,,,,,,,,,,,,,,,,,,,,,,,,,,,,,,,,,,,,,,,,,,,,,,,,,,,,,,,,,,,1135.7528,1138.022,space,2.2483,,1138.0235,1146.9603,4,8.9193,,1146.9605,89.43011531,5,1154.0301,space,7.0414,,1154.0303,12931,1162.4065,space,3.3377,,0,0,0,0,1